<?xml version="1.0" encoding="UTF-8"?>
<!--This example message is provided for illustrative purposes only. It has had no clinical validation. Where there are conflicts with the written message specification or schema, the specification or schema shall be considered to take precedence-->
<Bundle xmlns="http://hl7.org/fhir" xmlns:xsi="http://www.w3.org/2001/XMLSchema-instance" xsi:schemaLocation="http://hl7.org/fhir ../../schemas/bundle.xsd">
	<id value="320d7908-d1ae-48aa-b055-94561076b945"/>
	<meta>
		<profile value="https://fhir.nhs.uk/StructureDefinition/gpconnect-searchset-bundle-1"/>
	</meta>
	<type value="searchset"/>
	<entry>
		<fullUrl value="urn:uuid:31686b67-9f20-4644-9a54-193d2f91de57"/>
		<resource>
			<Patient>
				<id value="31686b67-9f20-4644-9a54-193d2f91de57"/>
				<meta>
					<profile value="https://fhir.hl7.org.uk/StructureDefinition/CareConnect-GPC-Patient-1"/>
				</meta>
				<extension url="https://fhir.hl7.org.uk/StructureDefinition/Extension-CareConnect-GPC-OrganDonor-1">
					<valueBoolean value="true"/>
				</extension>
				<extension url="https://fhir.hl7.org.uk/StructureDefinition/Extension-CareConnect-GPC-EthnicCategory-1">
					<valueCodeableConcept>
						<coding>
							<system value="https://fhir.hl7.org.uk/CareConnect-EthnicCategory-1"/>
							<code value="A"/>
							<display value="British, Mixed British"/>
						</coding>
					</valueCodeableConcept>
				</extension>
				<extension url="https://fhir.hl7.org.uk/StructureDefinition/Extension-CareConnect-GPC-NHSCommunication-1">
					<extension url="language">
						<valueCodeableConcept>
							<coding>
								<system value="https://fhir.hl7.org.uk/CareConnect-HumanLanguage-1"/>
								<code value="en"/>
								<display value="English"/>
							</coding>
						</valueCodeableConcept>
					</extension>
					<extension url="preferred">
						<valueBoolean value="true"/>
					</extension>
				</extension>
				<identifier>
					<extension url="https://fhir.hl7.org.uk/StructureDefinition/Extension-CareConnect-GPC-NHSNumberVerificationStatus-1">
						<valueCodeableConcept>
							<coding>
								<system value="https://fhir.hl7.org.uk/CareConnect-NhsNumberVerificationStatus-1"/>
								<code value="01"/>
								<display value="Number present and verified"/>
							</coding>
						</valueCodeableConcept>
					</extension>
					<system value="https://fhir.nhs.uk/Id/nhs-number"/>
					<value value="9900002831"/>
				</identifier>
				<name>
					<use value="usual"/>
					<family value="Taylor"/>
					<given value="Sally"/>
					<prefix value="Mrs"/>
				</name>
				<telecom>
					<system value="phone"/>
					<value value="0113-245-1919"/>
					<use value="home"/>
				</telecom>
				<gender value="female"/>
				<birthDate value="1947-06-09">
					<extension url="http://hl7.org/fhir/StructureDefinition/patient-birthTime">
						<valueDateTime value="1947-06-09T10:11:15+00:00"/>
					</extension>
				</birthDate>
				<address>
					<use value="home"/>
					<type value="both"/>
					<line value="42, Grove Street"/>
					<city value="Overtown"/>
					<district value="West Yorkshire"/>
					<postalCode value="LS21 1PF"/>
				</address>
				<maritalStatus>
					<coding>
						<system value="http://hl7.org/fhir/v3/MaritalStatus"/>
						<code value="M"/>
						<display value="Married"/>
					</coding>
				</maritalStatus>
				<contact>
					<relationship>
						<coding>
							<system value="http://hl7.org/fhir/patient-contact-relationship"/>
							<code value="family"/>
							<display value="Family"/>
						</coding>
					</relationship>
					<name>
						<use value="usual"/>
						<family value="Taylor"/>
						<given value="Ann"/>
						<prefix value="Miss"/>
					</name>
					<telecom>
						<system value="phone"/>
						<value value="0113-245-0909"/>
						<use value="home"/>
					</telecom>
					<address>
						<use value="home"/>
						<type value="both"/>
						<line value="120, Grove Street"/>
						<city value="Overtown"/>
						<district value="West Yorkshire"/>
						<postalCode value="LS21 1PT"/>
					</address>
					<gender value="female"/>
				</contact>
			</Patient>
		</resource>
	</entry>
	<entry>
		<fullUrl value="urn:uuid:0256d428-5aea-11e6-8b77-86f30ca893d3"/>
		<resource>
			<Composition>
				<id value="0256d428-5aea-11e6-8b77-86f30ca893d3"/>
				<meta>
					<profile value="https://fhir.nhs.uk/StructureDefinition/gpconnect-carerecord-composition-1"/>
				</meta>
				<text>
					<status value="generated"/>
					<div xmlns="http://www.w3.org/1999/xhtml">
						<p style="font-size:20px">
							<b>Patient Care Record - TAYLOR, Sally (Mrs)</b>
						</p>
						<p style="font-size:16px">
							<b>Record Id:</b> 31686b67-9f20-4644-9a54-193d2f91de57 <b>NHS Number:</b> 9900002831 <b>Date of Birth:</b> 1947-06-09 <b>Address:</b> 42 Grove Street, Overtown, West Yorkshire, LS21 1PF <b>Home Telephone:</b> 0113-245-1919 
			</p>
						<table width="100%" border="1">
							<thead>
								<tr>
									<td colspan="5">
										<b>Meta</b>
									</td>
								</tr>
							</thead>
							<tbody align="left">
								<tr style="bold">
									<td style="width:20%">
										<b>Id</b>
									</td>
									<td style="width:20%">
										<b>Date</b>
									</td>
									<td style="width:20%">
										<b>Type</b>
									</td>
									<td style="width:20%">
										<b>Status</b>
									</td>
									<td style="width:20%">
										<b>Confidentiality</b>
									</td>
								</tr>
								<tr>
									<td style="width:20%">767cec9e-8355-417f-8c8c-ba6dbffe195e</td>
									<td style="width:20%">11 July 2015 10:11:15 AM</td>
									<td style="width:20%">Care Record</td>
									<td style="width:20%">Final</td>
									<td style="width:20%">Very Restricted</td>
								</tr>
							</tbody>
						</table>
						<br/>
						<table width="100%" border="1">
							<thead>
								<tr>
									<td colspan="2">
										<b>Author/Custodian</b>
									</td>
								</tr>
							</thead>
							<tbody align="left">
								<tr>
									<td style="width:50%">
										<b>Author</b>
									</td>
									<td style="width:50%">
										<b>Custodian</b>
									</td>
								</tr>
								<tr>
									<td style="width:50%">EMIS AA 1001-C 8.15-04</td>
									<td style="width:50%">Wood Town GP Practice</td>
								</tr>
							</tbody>
						</table>
						<br/>
					</div>
				</text>
				<date value="2015-07-11T10:11:15+00:00"/>
				<type>
					<coding>
						<system value="http://snomed.info/sct"/>
						<code value="425173008"/>
						<display value="record extract (record artifact)"/>
					</coding>
					<text value="record extract (record artifact)"/>
				</type>
				<class>
					<coding>
						<system value="http://snomed.info/sct"/>
						<code value="700232004"/>
						<display value="general medical service (qualifier value)"/>
					</coding>
					<text value="general medical service (qualifier value)"/>
				</class>
				<title value="Patient Care Record"/>
				<status value="final"/>
				<confidentiality value="V"/>
				<subject>
					<reference value="urn:uuid:31686b67-9f20-4644-9a54-193d2f91de57"/>
					<display value="TAYLOR, Sally (Mrs)"/>
				</subject>
				<author>
					<reference value="urn:uuid:c4c8d038-913a-490c-9682-47047f4155fb"/>
					<display value="EMIS AA 1001-C 8.15-04"/>
				</author>
				<custodian>
					<reference value="urn:uuid:79600119-ebaf-4362-bb89-d473a33b1675"/>
					<display value="Wood Town GP practice"/>
				</custodian>
				<section>
					<title value="Medications"/>
					<code>
						<coding>
							<system value="https://fhir.nhs.uk/gpconnect-record-section-1"/>
							<code value="MED"/>
							<display value="Medications"/>
						</coding>
						<text value="Medications"/>
					</code>
					<text>
						<status value="generated"/>
						<div xmlns="http://www.w3.org/1999/xhtml">
							<table width="100%" border="1">
								<thead>
									<tr>
										<td colspan="6">
											<p>
												<b>Medications</b>: </p>
										</td>
									</tr>
								</thead>
								<tbody align="left">
									<tr>
										<td style="width:20%">
											<b>Name</b>
										</td>
										<td style="width:10%">
											<b>Dose</b>
										</td>
										<td style="width:20%">
											<b>Medication Frequency</b>
										</td>
										<td style="width:10%">
											<b>Route</b>
										</td>
										<td style="width:20%">
											<b>Medication Recommendations</b>
										</td>
										<td style="width:20%">
											<b>Date Prescribed</b>
										</td>
									</tr>
									<tr>
										<td style="width:20%">Naproxen 250mg tablets</td>
										<td style="width:10%">250mg</td>
										<td style="width:20%">One daily</td>
										<td style="width:10%">oral</td>
										<td style="width:20%">continue</td>
										<td style="width:20%">1-Feb-2015</td>
									</tr>
									<tr>
										<td style="width:20%">Aspirin 75mg e/c tablet</td>
										<td style="width:10%">75mg</td>
										<td style="width:20%">One daily</td>
										<td style="width:10%">oral</td>
										<td style="width:20%">continue</td>
										<td style="width:20%">14-Feb-2015</td>
									</tr>
									<tr>
										<td style="width:20%">Naproxen 250mg tablets</td>
										<td style="width:10%">250mg</td>
										<td style="width:20%">One tablet three times daily</td>
										<td style="width:10%">oral</td>
										<td style="width:20%">continue</td>
										<td style="width:20%">1-Sep-2014</td>
									</tr>
								</tbody>
							</table>
							<br/>
						</div>
					</text>
				</section>
			</Composition>
		</resource>
	</entry>
	<entry>
		<fullUrl value="urn:uuid:c4c8d038-913a-490c-9682-47047f4155fb"/>
		<resource>
			<Device>
				<id value="c4c8d038-913a-490c-9682-47047f4155fb"/>
				<meta>
					<profile value="https://fhir.nhs.uk/StructureDefinition/gpconnect-device-1"/>
				</meta>
				<identifier>
					<system value="https://emis.systemidentifier"/>
					<value value="8cecc0f1-ded1-4956-9504-cf02cc6395e3"/>
				</identifier>
				<type>
					<coding>
						<system value="http://snomed.info/sct"/>
						<code value="462240000"/>
						<display value="Patient health record information system (physical object)"/>
					</coding>
				</type>
				<note>
					<text value="System generated EHR (Details)"/>
				</note>
				<manufacturer value="EMIS"/>
				<model value="AA 1001-C"/>
				<version value="8.15-04"/>
				<owner>
					<reference value="urn:uuid:79600119-ebaf-4362-bb89-d473a33b1675"/>
					<display value="Wood Town GP Practice"/>
				</owner>
			</Device>
		</resource>
	</entry>
	<entry>
		<fullUrl value="urn:uuid:79600119-ebaf-4362-bb89-d473a33b1675"/>
		<resource>
			<Organization>
				<id value="79600119-ebaf-4362-bb89-d473a33b1675"/>
				<meta>
					<profile value="https://fhir.hl7.org.uk/StructureDefinition/CareConnect-GPC-Organization-1"/>
				</meta>
				<identifier>
					<system value="https://fhir.nhs.uk/Id/ods-organization-code"/>
					<value value="B86022"/>
				</identifier>
				<type>
					<coding>
						<system value="http://hl7.org/fhir/organization-type"/>
						<code value="prov"/>
						<display value="Healthcare Provider"/>
					</coding>
				</type>
				<name value="Wood Town GP practice"/>
				<telecom>
					<system value="phone"/>
					<value value="0113-333-3579"/>
					<use value="work"/>
				</telecom>
				<address>
					<use value="work"/>
					<line value="13, Amber Street"/>
					<city value="Leeds"/>
					<postalCode value="LS20 1TV"/>
					<country value="GBR"/>
				</address>
			</Organization>
		</resource>
	</entry>
</Bundle>
